  STEP   TOTAL TIME             LOCATION OF OBSERVATION POINTS (K,I,J)
                      1   5   5     1   8   5     1   3   5
     1    1.0000        0.0000        0.0000        0.0000    
     1    2.0000        2.7695       7.12008E-15   1.90111E-09
     1    3.0000        5.5305       9.06612E-14   1.16017E-08
     1    4.0000        8.2831       4.25682E-13   3.49902E-08
     1    5.0000        11.027       1.28085E-12   7.71858E-08
     1    6.0000        13.763       2.99496E-12   1.42810E-07
     1    7.0000        16.490       5.95971E-12   2.36189E-07
     1    8.0000        19.210       1.06057E-11   3.61442E-07
     1    9.0000        21.920       1.73942E-11   5.22487E-07
     1    10.000        24.623       2.68133E-11   7.23106E-07
     1    11.000        27.317       3.93760E-11   9.67001E-07
     1    12.000        30.003       5.56859E-11   1.25773E-06
     1    13.000        32.681       7.63755E-11   1.59882E-06
     1    14.000        35.351       1.02105E-10   1.99379E-06
     1    15.000        38.013       1.33587E-10   2.44648E-06
     1    16.000        40.666       1.71616E-10   2.96181E-06
     1    17.000        43.312       2.17033E-10   3.54436E-06
     1    18.000        45.949       2.70722E-10   4.19852E-06
     1    19.000        48.578       3.33481E-10   4.92915E-06
     1    20.000        51.200       4.06152E-10   5.74102E-06
     1    21.000        53.813       4.89658E-10   6.63831E-06
     1    22.000        56.418       5.84975E-10   7.62448E-06
     1    23.000        59.016       6.93123E-10   8.70293E-06
     1    24.000        61.605       8.14932E-10   9.87724E-06
     1    25.000        64.187       9.50663E-10   1.11511E-05
     1    26.000        66.761       1.10110E-09   1.25261E-05
     1    27.000        69.327       1.26721E-09   1.40045E-05
     1    28.000        71.885       1.44997E-09   1.55895E-05
     1    29.000        74.435       1.65006E-09   1.72843E-05
     1    30.000        76.978       1.86828E-09   1.90926E-05
     1    31.000        79.513       2.10558E-09   2.10180E-05
     1    32.000        82.040       2.36293E-09   2.30640E-05
     1    33.000        84.559       2.64206E-09   2.52344E-05
     1    34.000        87.071       2.94513E-09   2.75288E-05
     1    35.000        89.575       3.27334E-09   2.99465E-05
     1    36.000        92.072       3.62778E-09   3.24907E-05
     1    37.000        94.560       4.00950E-09   3.51656E-05
     1    38.000        97.042       4.41955E-09   3.79722E-05
     1    39.000        99.516       4.85900E-09   4.09129E-05
     1    40.000        101.98       5.32896E-09   4.39907E-05
     1    41.000        104.44       5.83048E-09   4.72088E-05
     1    42.000        106.89       6.36463E-09   5.05708E-05
     1    43.000        109.34       6.93253E-09   5.40802E-05
     1    44.000        111.77       7.51995E-09   5.77404E-05
     1    45.000        114.20       8.12116E-09   6.15555E-05
     1    46.000        116.62       8.73973E-09   6.55196E-05
     1    47.000        119.04       9.37830E-09   6.96288E-05
     1    48.000        121.44       1.00413E-08   7.38948E-05
     1    49.000        123.84       1.07342E-08   7.83438E-05
     1    50.000        126.23       1.14609E-08   8.29830E-05
     1    51.000        128.62       1.22245E-08   8.78159E-05
     1    52.000        131.00       1.30275E-08   9.28446E-05
     1    53.000        133.37       1.38718E-08   9.80710E-05
     1    54.000        135.73       1.47596E-08   1.03497E-04
     1    55.000        138.09       1.56927E-08   1.09123E-04
     1    56.000        140.44       1.66729E-08   1.14952E-04
     1    57.000        142.78       1.77020E-08   1.20986E-04
     1    58.000        145.11       1.87818E-08   1.27227E-04
     1    59.000        147.44       1.99144E-08   1.33678E-04
     1    60.000        149.76       2.11015E-08   1.40340E-04
     1    61.000        152.07       2.23454E-08   1.47216E-04
     1    62.000        154.38       2.36516E-08   1.54310E-04
     1    63.000        156.68       2.50219E-08   1.61624E-04
     1    64.000        158.97       2.64577E-08   1.69161E-04
     1    65.000        161.26       2.79890E-08   1.76923E-04
     1    66.000        163.53       2.96416E-08   1.84856E-04
     1    67.000        165.81       3.14099E-08   1.92895E-04
     1    68.000        168.07       3.32896E-08   2.01068E-04
     1    69.000        170.33       3.52778E-08   2.09391E-04
     1    70.000        172.58       3.73723E-08   2.17878E-04
     1    71.000        174.82       3.95724E-08   2.26552E-04
     1    72.000        177.06       4.18782E-08   2.35430E-04
     1    73.000        179.29       4.42903E-08   2.44522E-04
     1    74.000        181.51       4.68100E-08   2.53837E-04
     1    75.000        183.73       4.94387E-08   2.63381E-04
     1    76.000        185.94       5.21784E-08   2.73160E-04
     1    77.000        188.14       5.50313E-08   2.83180E-04
     1    78.000        190.34       5.79998E-08   2.93444E-04
     1    79.000        192.53       6.10861E-08   3.03957E-04
     1    80.000        194.71       6.42929E-08   3.14724E-04
     1    81.000        196.89       6.76228E-08   3.25749E-04
     1    82.000        199.06       7.10785E-08   3.37036E-04
     1    83.000        201.22       7.46628E-08   3.48589E-04
     1    84.000        203.38       7.83787E-08   3.60411E-04
     1    85.000        205.53       8.22291E-08   3.72506E-04
     1    86.000        207.68       8.62173E-08   3.84876E-04
     1    87.000        209.81       9.03464E-08   3.97526E-04
     1    88.000        211.94       9.46252E-08   4.10460E-04
     1    89.000        214.07       9.90633E-08   4.23681E-04
     1    90.000        216.18       1.03666E-07   4.37202E-04
     1    91.000        218.30       1.08438E-07   4.51032E-04
     1    92.000        220.40       1.13384E-07   4.65171E-04
     1    93.000        222.50       1.18506E-07   4.79619E-04
     1    94.000        224.59       1.23810E-07   4.94377E-04
     1    95.000        226.68       1.29298E-07   5.09443E-04
     1    96.000        228.76       1.34975E-07   5.24819E-04
     1    97.000        230.83       1.40842E-07   5.40507E-04
     1    98.000        232.90       1.46905E-07   5.56510E-04
     1    99.000        234.96       1.53167E-07   5.72827E-04
     1    100.00        237.01       1.59631E-07   5.89464E-04
     1    101.00        239.06       1.66301E-07   6.06423E-04
     1    102.00        243.15       1.73637E-07   6.34910E-04
     1    103.00        247.20       1.81907E-07   6.70399E-04
     1    104.00        251.22       1.91254E-07   7.09910E-04
     1    105.00        255.22       2.01760E-07   7.52126E-04
     1    106.00        259.19       2.13483E-07   7.96564E-04
     1    107.00        263.14       2.26469E-07   8.43103E-04
     1    108.00        267.07       2.40918E-07   8.91858E-04
     1    109.00        270.97       2.56848E-07   9.42758E-04
     1    110.00        274.85       2.74292E-07   9.95664E-04
     1    111.00        278.70       2.93282E-07   1.05048E-03
     1    112.00        282.53       3.13850E-07   1.10717E-03
     1    113.00        286.34       3.36025E-07   1.16570E-03
     1    114.00        290.12       3.59841E-07   1.22609E-03
     1    115.00        293.88       3.85332E-07   1.28833E-03
     1    116.00        297.62       4.12533E-07   1.35244E-03
     1    117.00        301.34       4.41481E-07   1.41844E-03
     1    118.00        305.03       4.72216E-07   1.48634E-03
     1    119.00        308.70       5.04778E-07   1.55618E-03
     1    120.00        312.35       5.39210E-07   1.62795E-03
     1    121.00        315.98       5.75555E-07   1.70169E-03
     1    122.00        319.58       6.13858E-07   1.77742E-03
     1    123.00        323.16       6.54165E-07   1.85516E-03
     1    124.00        326.72       6.96524E-07   1.93493E-03
     1    125.00        330.26       7.40984E-07   2.01675E-03
     1    126.00        333.78       7.87593E-07   2.10064E-03
     1    127.00        337.28       8.36403E-07   2.18663E-03
     1    128.00        340.75       8.87464E-07   2.27473E-03
     1    129.00        344.20       9.40831E-07   2.36497E-03
     1    130.00        347.64       9.96556E-07   2.45736E-03
     1    131.00        351.05       1.05469E-06   2.55194E-03
     1    132.00        354.44       1.11530E-06   2.64871E-03
     1    133.00        357.81       1.17843E-06   2.74771E-03
     1    134.00        361.17       1.24414E-06   2.84890E-03
     1    135.00        364.52       1.31248E-06   2.95227E-03
     1    136.00        367.84       1.38351E-06   3.05786E-03
     1    137.00        371.14       1.45729E-06   3.16567E-03
     1    138.00        374.42       1.53388E-06   3.27573E-03
     1    139.00        377.69       1.61333E-06   3.38805E-03
     1    140.00        380.93       1.69570E-06   3.50267E-03
     1    141.00        384.15       1.78105E-06   3.61960E-03
     1    142.00        387.36       1.86945E-06   3.73885E-03
     1    143.00        390.54       1.96095E-06   3.86045E-03
     1    144.00        393.70       2.05561E-06   3.98443E-03
     1    145.00        396.85       2.15350E-06   4.11078E-03
     1    146.00        399.98       2.25468E-06   4.23955E-03
     1    147.00        403.08       2.35921E-06   4.37074E-03
     1    148.00        406.17       2.46717E-06   4.50438E-03
     1    149.00        409.24       2.57860E-06   4.64048E-03
     1    150.00        412.29       2.69359E-06   4.77907E-03
     1    151.00        415.33       2.81219E-06   4.92016E-03
     1    152.00        418.34       2.93447E-06   5.06376E-03
     1    153.00        421.34       3.06050E-06   5.20991E-03
     1    154.00        424.31       3.19034E-06   5.35862E-03
     1    155.00        427.27       3.32408E-06   5.50989E-03
     1    156.00        430.22       3.46177E-06   5.66377E-03
     1    157.00        433.14       3.60348E-06   5.82025E-03
     1    158.00        436.06       3.84199E-06   9.45747E-03
     1    159.00        438.97       4.17080E-06   1.30963E-02
     1    160.00        441.86       4.59019E-06   1.67368E-02
     1    161.00        444.73       5.10049E-06   2.03790E-02
     1    162.00        447.59       5.70198E-06   2.40229E-02
     1    163.00        450.42       6.39494E-06   2.76684E-02
     1    164.00        453.24       7.17965E-06   3.13157E-02
     1    165.00        456.04       8.05638E-06   3.49647E-02
     1    166.00        458.83       9.02541E-06   3.86155E-02
     1    167.00        461.60       1.00870E-05   4.22680E-02
     1    168.00        464.35       1.12413E-05   4.59223E-02
     1    169.00        467.09       1.24887E-05   4.95784E-02
     1    170.00        469.81       1.38294E-05   5.32362E-02
     1    171.00        472.52       1.52637E-05   5.68958E-02
     1    172.00        475.21       1.67917E-05   6.05573E-02
     1    173.00        477.88       1.84136E-05   6.42206E-02
     1    174.00        480.54       2.01298E-05   6.78857E-02
     1    175.00        483.18       2.19404E-05   7.15528E-02
     1    176.00        485.80       2.38457E-05   7.52216E-02
     1    177.00        488.41       2.58458E-05   7.88924E-02
     1    178.00        491.00       2.79411E-05   8.25650E-02
     1    179.00        493.58       3.01316E-05   8.62396E-02
     1    180.00        496.14       3.24175E-05   8.99161E-02
     1    181.00        498.69       3.47992E-05   9.35945E-02
     1    182.00        501.22       3.72768E-05   9.72748E-02
     1    183.00        503.73       3.98504E-05   0.10096    
     1    184.00        506.24       4.25203E-05   0.10464    
     1    185.00        508.73       4.52867E-05   0.10833    
     1    186.00        511.20       4.81497E-05   0.11202    
     1    187.00        513.66       5.11096E-05   0.11571    
     1    188.00        516.11       5.41665E-05   0.11940    
     1    189.00        518.54       5.73206E-05   0.12309    
     1    190.00        520.96       6.05720E-05   0.12679    
     1    191.00        523.36       6.39211E-05   0.13049    
     1    192.00        525.74       6.73679E-05   0.13419    
     1    193.00        528.12       7.09126E-05   0.13789    
     1    194.00        530.47       7.45553E-05   0.14160    
     1    195.00        532.82       7.82964E-05   0.14530    
     1    196.00        535.15       8.21358E-05   0.14901    
     1    197.00        537.46       8.60739E-05   0.15273    
     1    198.00        539.76       9.01107E-05   0.15644    
     1    199.00        542.05       9.42464E-05   0.16015    
     1    200.00        544.32       9.84812E-05   0.16387    
     1    201.00        546.58       1.02815E-04   0.16759    
     1    202.00        548.14       1.07153E-04   0.17068    
     1    203.00        549.70       1.11459E-04   0.17342    
     1    204.00        551.26       1.15724E-04   0.17601    
     1    205.00        552.82       1.19953E-04   0.17855    
     1    206.00        554.36       1.24152E-04   0.18106    
     1    207.00        555.91       1.28330E-04   0.18357    
     1    208.00        557.44       1.32494E-04   0.18607    
     1    209.00        558.97       1.36651E-04   0.18858    
     1    210.00        560.49       1.40806E-04   0.19108    
     1    211.00        562.01       1.44966E-04   0.19359    
     1    212.00        563.52       1.49133E-04   0.19610    
     1    213.00        565.02       1.53313E-04   0.19861    
     1    214.00        566.52       1.57508E-04   0.20111    
     1    215.00        568.01       1.61720E-04   0.20362    
     1    216.00        569.49       1.65954E-04   0.20614    
     1    217.00        570.97       1.70210E-04   0.20865    
     1    218.00        572.44       1.74492E-04   0.21116    
     1    219.00        573.91       1.78799E-04   0.21367    
     1    220.00        575.37       1.83135E-04   0.21619    
     1    221.00        576.82       1.87501E-04   0.21870    
     1    222.00        578.27       1.91897E-04   0.22122    
     1    223.00        579.71       1.96325E-04   0.22374    
     1    224.00        581.14       2.00786E-04   0.22626    
     1    225.00        582.57       2.05281E-04   0.22878    
     1    226.00        584.00       2.09810E-04   0.23130    
     1    227.00        585.41       2.14375E-04   0.23382    
     1    228.00        586.82       2.18976E-04   0.23634    
     1    229.00        588.23       2.23614E-04   0.23887    
     1    230.00        589.62       2.28285E-04   0.24139    
     1    231.00        591.01       2.32986E-04   0.24392    
     1    232.00        592.40       2.37716E-04   0.24645    
     1    233.00        593.78       2.42478E-04   0.24898    
     1    234.00        595.15       2.47270E-04   0.25151    
     1    235.00        596.52       2.52093E-04   0.25404    
     1    236.00        597.88       2.56949E-04   0.25657    
     1    237.00        599.23       2.61837E-04   0.25889    
     1    238.00        600.58       2.66758E-04   0.26122    
     1    239.00        601.92       2.71713E-04   0.26355    
     1    240.00        603.26       2.76701E-04   0.26588    
     1    241.00        604.59       2.81722E-04   0.26821    
     1    242.00        605.91       2.86779E-04   0.27054    
     1    243.00        607.23       2.91869E-04   0.27287    
     1    244.00        608.54       2.96995E-04   0.27521    
     1    245.00        609.85       3.02156E-04   0.27754    
     1    246.00        611.15       3.07352E-04   0.27988    
     1    247.00        612.45       3.12584E-04   0.28222    
     1    248.00        613.74       3.17853E-04   0.28457    
     1    249.00        615.03       3.23157E-04   0.28691    
     1    250.00        616.31       3.28498E-04   0.28926    
     1    251.00        617.58       3.33875E-04   0.29160    
     1    252.00        618.85       3.39290E-04   0.29395    
     1    253.00        620.12       3.44742E-04   0.29630    
     1    254.00        621.37       3.50231E-04   0.29866    
     1    255.00        622.63       3.55757E-04   0.30101    
     1    256.00        623.88       3.61322E-04   0.30337    
     1    257.00        625.12       3.66924E-04   0.30573    
     1    258.00        626.36       3.72565E-04   0.30809    
     1    259.00        627.59       3.78258E-04   0.31112    
     1    260.00        628.82       3.84003E-04   0.31416    
     1    261.00        630.05       3.89800E-04   0.31720    
     1    262.00        631.27       3.95650E-04   0.32024    
     1    263.00        632.48       4.01553E-04   0.32328    
     1    264.00        633.69       4.07508E-04   0.32632    
     1    265.00        634.90       4.13516E-04   0.32937    
     1    266.00        636.10       4.19577E-04   0.33242    
     1    267.00        637.29       4.25692E-04   0.33547    
     1    268.00        638.48       4.31860E-04   0.33852    
     1    269.00        639.66       4.38081E-04   0.34158    
     1    270.00        640.84       4.44356E-04   0.34463    
     1    271.00        642.02       4.50685E-04   0.34769    
     1    272.00        643.19       4.57068E-04   0.35075    
     1    273.00        644.35       4.63505E-04   0.35382    
     1    274.00        645.51       4.69996E-04   0.35688    
     1    275.00        646.67       4.76543E-04   0.35995    
     1    276.00        647.82       4.83143E-04   0.36302    
     1    277.00        648.96       4.89799E-04   0.36609    
     1    278.00        650.10       4.96510E-04   0.36917    
     1    279.00        651.23       5.03276E-04   0.37225    
     1    280.00        652.36       5.10098E-04   0.37532    
     1    281.00        653.49       5.40462E-04   0.37841    
     1    282.00        654.62       5.70895E-04   0.38149    
     1    283.00        655.73       6.01399E-04   0.38458    
     1    284.00        656.85       6.31972E-04   0.38767    
     1    285.00        657.95       6.62616E-04   0.39076    
     1    286.00        659.06       6.93331E-04   0.39385    
     1    287.00        660.16       7.24116E-04   0.39694    
     1    288.00        661.25       7.54973E-04   0.40004    
     1    289.00        662.34       7.85905E-04    1.6349    
     1    290.00        663.43       8.16919E-04    1.6386    
     1    291.00        664.51       8.48018E-04    1.6423    
     1    292.00        665.59       8.79203E-04    1.6461    
     1    293.00        666.66       9.10476E-04    1.6498    
     1    294.00        667.73       9.41836E-04    1.6535    
     1    295.00        668.80       9.70159E-04    1.6573    
     1    296.00        669.86       9.98570E-04    1.6610    
     1    297.00        670.91       1.02707E-03    1.6648    
     1    298.00        671.96       1.05565E-03    1.6685    
     1    299.00        673.01       1.08431E-03    1.6723    
     1    300.00        674.05       1.11306E-03    1.6760    
     1    301.00        675.09       1.14190E-03    1.6798    
     1    302.00        675.06       1.17048E-03    1.6830    
     1    303.00        675.01       1.19856E-03    1.6857    
     1    304.00        674.96       1.22597E-03    1.6880    
     1    305.00        674.90       1.25257E-03    1.6899    
     1    306.00        674.83       1.27830E-03    1.6915    
     1    307.00        674.76       1.30312E-03    1.6929    
     1    308.00        674.67       1.32702E-03    1.6941    
     1    309.00        674.57       1.35001E-03    1.6952    
     1    310.00        674.47       1.37212E-03    1.6961    
     1    311.00        674.36       1.39340E-03    1.6970    
     1    312.00        674.25       1.41390E-03    1.6979    
     1    313.00        674.13       1.43366E-03    1.6988    
     1    314.00        674.00       1.45275E-03    1.6996    
     1    315.00        673.88       1.47123E-03    1.7006    
     1    316.00        673.75       1.48916E-03    1.7015    
     1    317.00        673.62       1.50660E-03    1.7026    
     1    318.00        673.48       1.52361E-03    1.7036    
     1    319.00        673.35       1.54024E-03    1.7048    
     1    320.00        673.21       1.55655E-03    1.7060    
     1    321.00        673.07       1.57259E-03    1.7073    
     1    322.00        672.93       1.58841E-03    1.7086    
     1    323.00        672.78       1.60404E-03    1.7101    
     1    324.00        672.64       1.61954E-03    1.7115    
     1    325.00        672.49       1.63493E-03    1.7131    
     1    326.00        672.35       1.65027E-03    1.7147    
     1    327.00        672.20       1.66557E-03    1.7163    
     1    328.00        672.05       1.68087E-03    1.7180    
     1    329.00        671.90       1.69619E-03    1.7198    
     1    330.00        671.75       1.71157E-03    1.7216    
     1    331.00        671.60       1.72702E-03    1.7234    
     1    332.00        671.44       1.74256E-03    1.7253    
     1    333.00        671.29       1.75821E-03    1.7273    
     1    334.00        671.14       1.77399E-03    1.7293    
     1    335.00        670.98       1.78991E-03    1.7313    
     1    336.00        670.83       1.80598E-03    1.7334    
     1    337.00        670.67       1.82222E-03    1.7356    
     1    338.00        670.52       1.83864E-03    1.7377    
     1    339.00        670.36       1.85525E-03    1.7399    
     1    340.00        670.20       1.87204E-03    1.7422    
     1    341.00        670.04       1.88904E-03    1.7445    
     1    342.00        669.89       1.90625E-03    1.7468    
     1    343.00        669.73       1.92367E-03    1.7491    
     1    344.00        669.57       1.94130E-03    1.7515    
     1    345.00        669.41       1.95915E-03    1.7539    
     1    346.00        669.25       1.97723E-03    1.7564    
     1    347.00        669.09       1.99553E-03    1.7588    
     1    348.00        668.93       2.01405E-03    1.7613    
     1    349.00        668.77       2.03281E-03    1.7639    
     1    350.00        668.61       2.05179E-03    1.7664    
     1    351.00        668.45       2.07100E-03    1.7690    
     1    352.00        668.28       2.09045E-03    1.7716    
     1    353.00        668.12       2.11012E-03    1.7742    
     1    354.00        667.96       2.13003E-03   0.54534    
     1    355.00        667.79       2.15016E-03   0.54762    
     1    356.00        667.63       2.17052E-03   0.54991    
     1    357.00        667.46       2.19111E-03   0.55223    
     1    358.00        667.30       2.21192E-03   0.55456    
     1    359.00        667.14       2.23296E-03   0.55690    
     1    360.00        666.97       2.25422E-03   0.55926    
     1    361.00        666.80       2.27571E-03   0.56164    
     1    362.00        666.64       2.29741E-03   0.56403    
     1    363.00        666.47       2.31933E-03   0.56643    
     1    364.00        666.31       2.34147E-03   0.56885    
     1    365.00        666.14       2.36382E-03   0.57127    
     1    366.00        665.97       2.38639E-03   0.57372    
     1    367.00        665.81       2.40916E-03   0.57617    
     1    368.00        665.64       2.43215E-03   0.57863    
     1    369.00        665.47       2.45534E-03   0.58111    
     1    370.00        665.31       2.47873E-03   0.58360    
     1    371.00        665.14       2.50233E-03   0.58610    
     1    372.00        664.97       2.51148E-03   0.58861    
     1    373.00        664.80       2.52074E-03   0.59113    
     1    374.00        664.63       2.52898E-03   0.59366    
     1    375.00        664.46       2.53729E-03   0.59620    
     1    376.00        664.29       2.54569E-03   0.59875    
     1    377.00        664.12       2.55417E-03   0.60131    
     1    378.00        663.95       2.56274E-03   0.60387    
     1    379.00        663.78       2.57139E-03   0.60645    
     1    380.00        663.61       2.58012E-03   0.60903    
     1    381.00        663.44       2.58893E-03   0.61162    
     1    382.00        663.27       2.59782E-03   0.61422    
     1    383.00        663.10       2.60679E-03   0.61682    
     1    384.00        662.93       2.61584E-03   0.61943    
     1    385.00        662.76       2.62496E-03   0.62205    
     1    386.00        662.59       2.63417E-03   0.62468    
     1    387.00        662.42       2.64345E-03   0.62731    
     1    388.00        662.25       2.65281E-03   0.62995    
     1    389.00        662.08       2.66225E-03   0.63260    
     1    390.00        661.90       2.67177E-03   0.63525    
     1    391.00        661.73       2.68136E-03   0.63790    
     1    392.00        661.56       2.69102E-03   0.64056    
     1    393.00        661.39       2.70076E-03   0.64323    
     1    394.00        661.22       2.71057E-03   0.64590    
     1    395.00        661.05       2.72046E-03   0.64858    
     1    396.00        660.87       2.73042E-03   0.65127    
     1    397.00        660.70       2.74045E-03   0.65395    
     1    398.00        660.53       2.75056E-03   0.65665    
     1    399.00        610.87       2.76074E-03   0.65934    
     1    400.00        610.71       2.77099E-03   0.66204    
     1    401.00        610.54       2.78131E-03   0.66475    
